> PKiKP at   964.55 seconds at    30.00 degrees for a    300.0 km deep source in the prem model with rayParam    0.663 s/deg.
    0.00    6071.0
    0.01    6061.0
    0.01    6060.1
    0.01    6059.2
    0.02    6037.7
    0.03    6016.0
    0.04    6001.4
    0.05    5984.5
    0.05    5971.0
    0.06    5962.3
    0.06    5953.5
    0.07    5935.6
    0.07    5932.7
    0.08    5926.9
    0.08    5921.0
    0.09    5906.2
    0.10    5891.1
    0.11    5871.0
    0.12    5861.7
    0.12    5855.1
    0.13    5848.3
    0.13    5834.8
    0.14    5821.0
    0.14    5820.4
    0.15    5812.3
    0.15    5804.2
    0.16    5787.7
    0.18    5771.0
    0.18    5764.6
    0.18    5758.2
    0.19    5745.3
    0.20    5740.7
    0.20    5736.0
    0.21    5718.5
    0.22    5701.0
    0.22    5697.6
    0.23    5694.2
    0.24    5683.3
    0.24    5672.2
    0.26    5650.0
    0.28    5623.1
    0.30    5600.0
    0.31    5581.1
    0.33    5562.1
    0.34    5550.0
    0.34    5544.0
    0.35    5537.9
    0.36    5519.0
    0.37    5509.5
    0.38    5500.0
    0.40    5477.4
    0.41    5454.7
    0.42    5447.9
    0.43    5437.6
    0.43    5436.5
    0.43    5435.3
    0.43    5433.0
    0.44    5428.3
    0.44    5423.6
    0.44    5418.9
    0.45    5414.2
    0.45    5409.5
    0.46    5400.0
    0.47    5387.1
    0.48    5374.1
    0.49    5361.1
    0.50    5348.1
    0.52    5336.1
    0.53    5324.1
    0.55    5300.0
    0.57    5270.3
    0.60    5240.3
    0.62    5220.2
    0.64    5200.0
    0.66    5176.9
    0.69    5146.9
    0.72    5116.6
    0.72    5115.0
    0.72    5113.5
    0.73    5110.3
    0.73    5104.1
    0.74    5100.0
    0.75    5091.5
    0.77    5066.1
    0.81    5028.8
    0.84    5000.0
    0.85    4991.1
    0.89    4950.6
    0.91    4930.1
    0.94    4909.6
    0.95    4900.0
    0.98    4872.3
    1.00    4853.4
    1.02    4834.5
    1.06    4800.0
    1.07    4794.4
    1.09    4774.0
    1.12    4753.5
    1.16    4716.4
    1.18    4700.0
    1.21    4678.8
    1.25    4640.8
    1.28    4621.6
    1.30    4602.4
    1.31    4600.0
    1.35    4563.5
    1.38    4544.0
    1.41    4524.3
    1.44    4500.0
    1.46    4484.7
    1.52    4444.7
    1.52    4439.7
    1.58    4400.0
    1.61    4378.9
    1.62    4371.6
    1.67    4335.9
    1.73    4300.0
    1.79    4260.5
    1.85    4220.8
    1.87    4210.4
    1.89    4200.0
    1.97    4150.2
    2.05    4100.0
    2.07    4089.4
    2.09    4080.8
    2.10    4072.3
    2.16    4036.2
    2.20    4018.2
    2.23    4000.0
    2.30    3963.2
    2.37    3926.1
    2.39    3913.1
    2.42    3900.0
    2.51    3850.2
    2.61    3800.0
    2.63    3790.8
    2.64    3786.6
    2.65    3782.4
    2.74    3741.3
    2.83    3700.0
    2.96    3641.0
    2.98    3630.0
    3.02    3615.0
    3.05    3600.0
    3.14    3562.2
    3.23    3524.3
    3.29    3500.0
    3.34    3480.0
    3.34    3479.0
    3.34    3478.0
    3.35    3476.0
    3.35    3472.0
    3.36    3463.9
    3.39    3447.7
    3.42    3424.0
    3.46    3400.0
    3.50    3374.0
    3.52    3360.9
    3.54    3347.7
    3.58    3324.0
    3.60    3312.0
    3.62    3300.0
    3.67    3274.0
    3.69    3261.0
    3.71    3247.8
    3.75    3224.0
    3.80    3200.0
    3.84    3175.3
    3.86    3162.9
    3.89    3150.4
    3.94    3125.3
    3.96    3112.7
    3.99    3100.0
    4.04    3074.0
    4.09    3047.8
    4.10    3044.5
    4.15    3018.6
    4.18    3004.8
    4.19    3000.0
    4.24    2976.3
    4.29    2952.5
    4.35    2926.3
    4.41    2900.0
    4.43    2893.0
    4.45    2886.0
    4.53    2852.5
    4.61    2818.7
    4.63    2811.5
    4.64    2805.8
    4.66    2800.0
    4.72    2775.4
    4.75    2763.0
    4.78    2750.6
    4.85    2725.4
    4.92    2700.0
    4.95    2690.9
    4.97    2681.9
    5.07    2647.2
    5.17    2612.3
    5.19    2605.8
    5.20    2602.9
    5.21    2600.0
    5.30    2571.0
    5.39    2541.8
    5.52    2500.0
    5.55    2492.1
    5.58    2483.5
    5.61    2474.8
    5.68    2452.8
    5.76    2430.8
    5.81    2416.6
    5.85    2404.9
    5.86    2403.7
    5.86    2402.5
    5.87    2400.0
    5.88    2397.0
    5.89    2393.9
    5.91    2387.8
    5.93    2382.9
    5.95    2378.1
    5.99    2368.4
    6.02    2358.6
    6.06    2348.8
    6.11    2336.7
    6.15    2324.5
    6.25    2300.0
    6.35    2275.2
    6.40    2262.7
    6.45    2250.2
    6.56    2225.2
    6.67    2200.0
    6.86    2158.0
    6.90    2149.0
    7.13    2100.0
    7.38    2050.2
    7.65    2000.0
    7.93    1949.1
    8.12    1917.2
    8.22    1900.0
    8.54    1849.2
    8.87    1800.0
    9.22    1750.2
    9.60    1700.0
    9.73    1683.3
    9.87    1666.6
   10.14    1633.4
   10.43    1600.0
   10.89    1550.2
   11.38    1500.0
   11.87    1453.7
   12.40    1407.1
   12.48    1400.0
   13.09    1350.1
   13.76    1300.0
   14.35    1260.8
   14.93    1221.5
   15.52    1260.8
   16.10    1300.0
   16.77    1350.1
   17.38    1400.0
   17.47    1407.1
   17.99    1453.7
   18.48    1500.0
   18.98    1550.2
   19.43    1600.0
   19.72    1633.4
   20.00    1666.6
   20.13    1683.3
   20.26    1700.0
   20.64    1750.2
   20.99    1800.0
   21.32    1849.2
   21.64    1900.0
   21.74    1917.2
   21.93    1949.1
   22.22    2000.0
   22.48    2050.2
   22.73    2100.0
   22.96    2149.0
   23.01    2158.0
   23.19    2200.0
   23.30    2225.2
   23.41    2250.2
   23.46    2262.7
   23.51    2275.2
   23.61    2300.0
   23.71    2324.5
   23.76    2336.7
   23.80    2348.8
   23.84    2358.6
   23.88    2368.4
   23.91    2378.1
   23.93    2382.9
   23.95    2387.8
   23.97    2393.9
   23.98    2397.0
   23.99    2400.0
   24.00    2402.5
   24.01    2403.7
   24.01    2404.9
   24.05    2416.6
   24.10    2430.8
   24.18    2452.8
   24.26    2474.8
   24.29    2483.5
   24.31    2492.1
   24.34    2500.0
   24.48    2541.8
   24.57    2571.0
   24.66    2600.0
   24.66    2602.9
   24.67    2605.8
   24.69    2612.3
   24.79    2647.2
   24.89    2681.9
   24.92    2690.9
   24.94    2700.0
   25.01    2725.4
   25.08    2750.6
   25.11    2763.0
   25.14    2775.4
   25.21    2800.0
   25.22    2805.8
   25.24    2811.5
   25.25    2818.7
   25.34    2852.5
   25.42    2886.0
   25.43    2893.0
   25.45    2900.0
   25.51    2926.3
   25.57    2952.5
   25.62    2976.3
   25.67    3000.0
   25.68    3004.8
   25.71    3018.6
   25.77    3044.5
   25.77    3047.8
   25.83    3074.0
   25.88    3100.0
   25.90    3112.7
   25.93    3125.3
   25.98    3150.4
   26.00    3162.9
   26.02    3175.3
   26.07    3200.0
   26.11    3224.0
   26.15    3247.8
   26.18    3261.0
   26.20    3274.0
   26.24    3300.0
   26.26    3312.0
   26.28    3324.0
   26.32    3347.7
   26.34    3360.9
   26.36    3374.0
   26.40    3400.0
   26.44    3424.0
   26.48    3447.7
   26.50    3463.9
   26.51    3472.0
   26.52    3476.0
   26.52    3478.0
   26.52    3479.0
   26.52    3480.0
   26.57    3500.0
   26.63    3524.3
   26.72    3562.2
   26.81    3600.0
   26.85    3615.0
   26.88    3630.0
   26.91    3641.0
   27.04    3700.0
   27.13    3741.3
   27.21    3782.4
   27.22    3786.6
   27.23    3790.8
   27.25    3800.0
   27.35    3850.2
   27.45    3900.0
   27.47    3913.1
   27.50    3926.1
   27.57    3963.2
   27.63    4000.0
   27.67    4018.2
   27.70    4036.2
   27.76    4072.3
   27.78    4080.8
   27.79    4089.4
   27.81    4100.0
   27.90    4150.2
   27.98    4200.0
   27.99    4210.4
   28.01    4220.8
   28.07    4260.5
   28.13    4300.0
   28.19    4335.9
   28.24    4371.6
   28.25    4378.9
   28.28    4400.0
   28.34    4439.7
   28.35    4444.7
   28.40    4484.7
   28.42    4500.0
   28.46    4524.3
   28.48    4544.0
   28.51    4563.5
   28.56    4600.0
   28.56    4602.4
   28.58    4621.6
   28.61    4640.8
   28.66    4678.8
   28.68    4700.0
   28.70    4716.4
   28.75    4753.5
   28.77    4774.0
   28.80    4794.4
   28.80    4800.0
   28.84    4834.5
   28.86    4853.4
   28.89    4872.3
   28.92    4900.0
   28.93    4909.6
   28.95    4930.1
   28.97    4950.6
   29.01    4991.1
   29.02    5000.0
   29.05    5028.8
   29.09    5066.1
   29.12    5091.5
   29.13    5100.0
   29.13    5104.1
   29.14    5110.3
   29.14    5113.5
   29.14    5115.0
   29.14    5116.6
   29.17    5146.9
   29.20    5176.9
   29.22    5200.0
   29.24    5220.2
   29.26    5240.3
   29.29    5270.3
   29.32    5300.0
   29.34    5324.1
   29.35    5336.1
   29.36    5348.1
   29.37    5361.1
   29.38    5374.1
   29.39    5387.1
   29.40    5400.0
   29.41    5409.5
   29.42    5414.2
   29.42    5418.9
   29.42    5423.6
   29.43    5428.3
   29.43    5433.0
   29.43    5435.3
   29.43    5436.5
   29.44    5437.6
   29.44    5447.9
   29.45    5454.7
   29.47    5477.4
   29.49    5500.0
   29.49    5509.5
   29.50    5519.0
   29.52    5537.9
   29.52    5544.0
   29.53    5550.0
   29.54    5562.1
   29.55    5581.1
   29.57    5600.0
   29.58    5623.1
   29.60    5650.0
   29.62    5672.2
   29.63    5683.3
   29.64    5694.2
   29.64    5697.6
   29.64    5701.0
   29.65    5718.5
   29.67    5736.0
   29.67    5740.7
   29.67    5745.3
   29.68    5758.2
   29.68    5764.6
   29.69    5771.0
   29.70    5787.7
   29.71    5804.2
   29.72    5812.3
   29.72    5820.4
   29.72    5821.0
   29.73    5834.8
   29.74    5848.3
   29.74    5855.1
   29.75    5861.7
   29.75    5871.0
   29.76    5891.1
   29.77    5906.2
   29.78    5921.0
   29.79    5926.9
   29.79    5932.7
   29.79    5935.6
   29.80    5953.5
   29.81    5962.3
   29.81    5971.0
   29.82    5984.5
   29.83    6001.4
   29.83    6016.0
   29.85    6037.7
   29.86    6059.2
   29.86    6060.1
   29.86    6061.0
   29.86    6071.0
   29.87    6080.5
   29.88    6093.3
   29.88    6106.0
   29.88    6111.6
   29.89    6117.1
   29.89    6128.2
   29.89    6130.6
   29.90    6133.1
   29.90    6142.1
   29.90    6146.5
   29.90    6148.8
   29.90    6151.0
   29.91    6168.5
   29.92    6186.0
   29.93    6203.5
   29.94    6221.0
   29.94    6238.5
   29.95    6247.2
   29.95    6256.0
   29.95    6263.3
   29.96    6264.0
   29.96    6277.5
   29.97    6291.0
   29.97    6301.0
   29.98    6311.0
   29.98    6316.0
   29.98    6321.0
   29.98    6326.0
   29.99    6331.0
   29.99    6334.9
   29.99    6338.8
   29.99    6342.7
   29.99    6344.6
   29.99    6346.6
   29.99    6346.9
   29.99    6351.4
   29.99    6353.7
   29.99    6354.9
   30.00    6356.0
   30.00    6363.5
   30.00    6367.3
   30.00    6369.1
   30.00    6370.1
   30.00    6371.0
