> PcP at   514.35 seconds at    30.00 degrees for a    300.0 km deep source in the prem model with rayParam    2.618 s/deg.
    0.00    6071.0
    0.02    6061.0
    0.02    6060.1
    0.02    6059.2
    0.07    6037.7
    0.12    6016.0
    0.15    6001.4
    0.18    5984.5
    0.21    5971.0
    0.23    5962.3
    0.25    5953.5
    0.30    5935.6
    0.30    5932.7
    0.32    5926.9
    0.33    5921.0
    0.37    5906.2
    0.40    5891.1
    0.45    5871.0
    0.47    5861.7
    0.49    5855.1
    0.51    5848.3
    0.54    5834.8
    0.58    5821.0
    0.58    5820.4
    0.60    5812.3
    0.62    5804.2
    0.67    5787.7
    0.71    5771.0
    0.73    5764.6
    0.75    5758.2
    0.78    5745.3
    0.79    5740.7
    0.81    5736.0
    0.86    5718.5
    0.90    5701.0
    0.91    5697.6
    0.92    5694.2
    0.96    5683.3
    0.99    5672.2
    1.06    5650.0
    1.14    5623.1
    1.21    5600.0
    1.27    5581.1
    1.34    5562.1
    1.38    5550.0
    1.40    5544.0
    1.42    5537.9
    1.48    5519.0
    1.51    5509.5
    1.54    5500.0
    1.62    5477.4
    1.69    5454.7
    1.72    5447.9
    1.75    5437.6
    1.76    5436.5
    1.76    5435.3
    1.77    5433.0
    1.79    5428.3
    1.80    5423.6
    1.82    5418.9
    1.84    5414.2
    1.85    5409.5
    1.89    5400.0
    1.93    5387.1
    1.98    5374.1
    2.03    5361.1
    2.07    5348.1
    2.12    5336.1
    2.16    5324.1
    2.25    5300.0
    2.36    5270.3
    2.48    5240.3
    2.56    5220.2
    2.64    5200.0
    2.73    5176.9
    2.85    5146.9
    2.97    5116.6
    2.98    5115.0
    2.99    5113.5
    3.00    5110.3
    3.03    5104.1
    3.04    5100.0
    3.08    5091.5
    3.19    5066.1
    3.35    5028.8
    3.47    5000.0
    3.51    4991.1
    3.70    4950.6
    3.79    4930.1
    3.89    4909.6
    3.93    4900.0
    4.06    4872.3
    4.15    4853.4
    4.24    4834.5
    4.41    4800.0
    4.44    4794.4
    4.54    4774.0
    4.65    4753.5
    4.84    4716.4
    4.92    4700.0
    5.04    4678.8
    5.24    4640.8
    5.35    4621.6
    5.45    4602.4
    5.47    4600.0
    5.67    4563.5
    5.78    4544.0
    5.90    4524.3
    6.04    4500.0
    6.13    4484.7
    6.38    4444.7
    6.41    4439.7
    6.65    4400.0
    6.79    4378.9
    6.83    4371.6
    7.07    4335.9
    7.30    4300.0
    7.57    4260.5
    7.85    4220.8
    7.92    4210.4
    8.00    4200.0
    8.36    4150.2
    8.74    4100.0
    8.82    4089.4
    8.89    4080.8
    8.95    4072.3
    9.24    4036.2
    9.38    4018.2
    9.53    4000.0
    9.84    3963.2
   10.15    3926.1
   10.26    3913.1
   10.38    3900.0
   10.82    3850.2
   11.29    3800.0
   11.38    3790.8
   11.42    3786.6
   11.46    3782.4
   11.86    3741.3
   12.28    3700.0
   12.89    3641.0
   13.01    3630.0
   13.18    3615.0
   13.34    3600.0
   13.76    3562.2
   14.20    3524.3
   14.49    3500.0
   14.73    3480.0
   14.97    3500.0
   15.25    3524.3
   15.69    3562.2
   16.11    3600.0
   16.28    3615.0
   16.44    3630.0
   16.56    3641.0
   17.18    3700.0
   17.59    3741.3
   17.99    3782.4
   18.03    3786.6
   18.07    3790.8
   18.16    3800.0
   18.63    3850.2
   19.07    3900.0
   19.19    3913.1
   19.30    3926.1
   19.62    3963.2
   19.92    4000.0
   20.07    4018.2
   20.22    4036.2
   20.50    4072.3
   20.57    4080.8
   20.63    4089.4
   20.71    4100.0
   21.09    4150.2
   21.45    4200.0
   21.53    4210.4
   21.60    4220.8
   21.88    4260.5
   22.15    4300.0
   22.39    4335.9
   22.62    4371.6
   22.66    4378.9
   22.80    4400.0
   23.05    4439.7
   23.08    4444.7
   23.32    4484.7
   23.41    4500.0
   23.55    4524.3
   23.67    4544.0
   23.78    4563.5
   23.99    4600.0
   24.00    4602.4
   24.11    4621.6
   24.21    4640.8
   24.41    4678.8
   24.53    4700.0
   24.61    4716.4
   24.80    4753.5
   24.91    4774.0
   25.01    4794.4
   25.04    4800.0
   25.21    4834.5
   25.30    4853.4
   25.39    4872.3
   25.52    4900.0
   25.57    4909.6
   25.66    4930.1
   25.75    4950.6
   25.94    4991.1
   25.98    5000.0
   26.10    5028.8
   26.26    5066.1
   26.37    5091.5
   26.41    5100.0
   26.43    5104.1
   26.45    5110.3
   26.46    5113.5
   26.47    5115.0
   26.48    5116.6
   26.60    5146.9
   26.72    5176.9
   26.82    5200.0
   26.90    5220.2
   26.97    5240.3
   27.09    5270.3
   27.20    5300.0
   27.29    5324.1
   27.33    5336.1
   27.38    5348.1
   27.43    5361.1
   27.47    5374.1
   27.52    5387.1
   27.57    5400.0
   27.60    5409.5
   27.62    5414.2
   27.63    5418.9
   27.65    5423.6
   27.67    5428.3
   27.68    5433.0
   27.69    5435.3
   27.69    5436.5
   27.70    5437.6
   27.73    5447.9
   27.76    5454.7
   27.83    5477.4
   27.91    5500.0
   27.94    5509.5
   27.97    5519.0
   28.04    5537.9
   28.06    5544.0
   28.08    5550.0
   28.12    5562.1
   28.18    5581.1
   28.24    5600.0
   28.31    5623.1
   28.39    5650.0
   28.46    5672.2
   28.49    5683.3
   28.53    5694.2
   28.54    5697.6
   28.55    5701.0
   28.60    5718.5
   28.64    5736.0
   28.66    5740.7
   28.67    5745.3
   28.71    5758.2
   28.72    5764.6
   28.74    5771.0
   28.79    5787.7
   28.83    5804.2
   28.85    5812.3
   28.87    5820.4
   28.87    5821.0
   28.91    5834.8
   28.94    5848.3
   28.96    5855.1
   28.98    5861.7
   29.00    5871.0
   29.05    5891.1
   29.09    5906.2
   29.12    5921.0
   29.14    5926.9
   29.15    5932.7
   29.16    5935.6
   29.20    5953.5
   29.22    5962.3
   29.24    5971.0
   29.27    5984.5
   29.30    6001.4
   29.34    6016.0
   29.38    6037.7
   29.43    6059.2
   29.43    6060.1
   29.43    6061.0
   29.45    6071.0
   29.47    6080.5
   29.50    6093.3
   29.52    6106.0
   29.54    6111.6
   29.55    6117.1
   29.57    6128.2
   29.57    6130.6
   29.58    6133.1
   29.60    6142.1
   29.61    6146.5
   29.61    6148.8
   29.61    6151.0
   29.65    6168.5
   29.68    6186.0
   29.71    6203.5
   29.74    6221.0
   29.77    6238.5
   29.79    6247.2
   29.81    6256.0
   29.82    6263.3
   29.82    6264.0
   29.84    6277.5
   29.87    6291.0
   29.89    6301.0
   29.90    6311.0
   29.91    6316.0
   29.92    6321.0
   29.93    6326.0
   29.94    6331.0
   29.95    6334.9
   29.95    6338.8
   29.96    6342.7
   29.96    6344.6
   29.97    6346.6
   29.97    6346.9
   29.97    6351.4
   29.98    6353.7
   29.98    6354.9
   29.98    6356.0
   29.99    6363.5
   30.00    6367.3
   30.00    6369.1
   30.00    6370.1
   30.00    6371.0
